#NOTE: MSDs should be divided by the total number of molecules (N).
#Time	MSD__Cl_Cl	MSD__Cl_wat	MSD__Cl_Na	MSD__wat_wat	MSD__wat_Na	MSD__Na_Na	
 1000 2.15321 -4.3185 -0.00157248 11.5999 -2.1204 1.7037
 2000 3.54977 -7.12052 0.010721 19.1182 -3.50516 2.78463
 3000 4.91511 -9.83977 0.0100019 26.3804 -4.83974 3.84486
 4000 6.27582 -12.5584 0.0169905 33.6541 -6.19697 4.9086
 5000 7.62745 -15.2536 0.0225599 40.8345 -7.53276 5.95635
 6000 8.97831 -17.9469 0.0308279 47.9958 -8.87001 6.99858
 7000 10.3304 -20.6388 0.0376416 55.1221 -10.1919 8.03007
 8000 11.6815 -23.334 0.0489601 62.2622 -11.5276 9.06531
 9000 13.0338 -26.0325 0.0632338 69.4144 -12.877 10.1039
 10000 14.3868 -28.7182 0.0674849 76.4981 -14.2002 11.1372
 11000 15.7417 -31.4072 0.0745272 83.582 -15.531 12.1717
 12000 17.0937 -34.0871 0.0802472 90.6329 -16.8575 13.2045
 13000 18.4404 -36.7522 0.0828796 97.6476 -18.1849 14.2437
 14000 19.7836 -39.4111 0.0874645 104.645 -19.5126 15.2786
 15000 21.1422 -42.0962 0.0898182 111.686 -20.8418 16.3184
 16000 22.4905 -44.7728 0.0999074 118.73 -22.1843 17.3556
 17000 23.8423 -47.4533 0.108707 125.773 -23.5228 18.3901
 18000 25.1898 -50.125 0.117681 132.803 -24.868 19.4294
 19000 26.5419 -52.8004 0.122567 139.815 -26.196 20.4617
 20000 27.8894 -55.4689 0.13068 146.825 -27.5376 21.4985
 20000 27.9391 -55.5228 0.125599 146.476 -27.3047 21.3579
 40000 54.685 -108.444 0.303851 284.826 -53.7216 41.7199
 60000 81.1104 -160.744 0.575033 421.385 -80.1747 62.0594
 80000 107.482 -213.095 0.891297 557.993 -106.358 82.0489
 100000 133.196 -264.063 1.14901 691.226 -132.129 101.854
 120000 158.924 -315.023 1.33716 824.215 -157.644 121.59
 140000 184.502 -366.107 1.84468 958.07 -183.594 141.136
 160000 210.071 -417.259 2.4471 1092.54 -210.007 160.913
 180000 235.806 -468.997 3.22063 1227.41 -235.79 179.956
 200000 261.422 -520.653 4.24581 1363.29 -262.632 199.369
 220000 286.602 -570.8 4.68195 1495.09 -288.589 219.076
 240000 312.069 -621.405 5.06378 1627.87 -314.566 238.827
 260000 337.258 -671.7 5.5997 1760.55 -340.887 258.608
 280000 362.737 -722.639 6.27611 1894.94 -367.721 278.57
 300000 388.16 -773.802 7.16652 2030.36 -394.928 298.489
 320000 413.51 -824.333 7.6355 2163.99 -421.67 318.746
 340000 438.16 -873.169 7.90029 2293.96 -448.196 339.117
 360000 462.933 -922.152 8.0954 2423.07 -473.839 358.887
 380000 487.715 -971.28 8.33529 2553.04 -499.883 378.963
 400000 512.669 -1020.93 8.78752 2684.89 -526.641 399.206
 400000 524.837 -1046.13 9.62138 2701.91 -500.26 376.705
 800000 1028.32 -2043.01 14.4216 5304.09 -1001.42 761.49
 1.2e+06 1528.52 -3026.67 13.4592 7829.53 -1463.45 1125.59
 1.6e+06 2058.82 -4041.89 -9.46633 10411.7 -1920.06 1518.84
 2e+06 2601.89 -5054.75 -53.0145 12994 -2380.89 1946.18
 2.4e+06 3133.01 -6021.54 -114.992 15478.3 -2834.69 2396.56
 2.8e+06 3730.38 -7116.97 -178.245 18265.6 -3329.21 2882.03
 3.2e+06 4335.65 -8256.33 -220 21166.3 -3841.75 3347.16
 3.6e+06 4925.95 -9360.11 -265.431 23959.1 -4326.86 3796.43
 4e+06 5504.85 -10413.5 -332.384 26613.9 -4783.34 4257.47
 4.4e+06 6074.39 -11476.5 -377.475 29333.3 -5275.65 4712.79
 4.8e+06 6645.59 -12513 -446.817 31940.2 -5718.3 5166.3
 5.2e+06 7220.18 -13574.2 -501.628 34626.1 -6185.99 5617.5
 5.6e+06 7798.8 -14639.6 -558.737 37271.2 -6616.46 6042.86
 6e+06 8396.02 -15745.9 -613.887 39989.6 -7039.6 6460.22
 6.4e+06 8954.69 -16768.9 -673.965 42534.4 -7455.91 6879.33
 6.8e+06 9490.67 -17739.8 -739.678 44935.7 -7840.13 7281.4
 7.2e+06 9983.79 -18635.1 -797.295 47214.4 -8246.62 7688.16
 7.6e+06 10462.5 -19494 -862.483 49420.8 -8650.74 8105.01
 8e+06 10905 -20255.9 -946.532 51386.2 -9017.94 8522.05
 8e+06 10865.8 -20995 -293.666 56533.8 -11941.2 9808.6
 1.6e+07 17318.2 -32455.7 -1246.27 88980.4 -19732.6 17387.8
 2.4e+07 23796.3 -47382.4 474.309 139802 -36575.2 27940.1
 3.2e+07 28213.1 -59644.7 3251.9 185250 -53252.8 36735.7
 4e+07 28410.9 -61749.6 4603.3 203054 -63979 43062.6
 4.8e+07 29541.5 -65912.1 6113.54 228659 -77582.8 51373.3
 5.6e+07 27165.8 -61219.9 6106.04 224240 -81376.5 54365
 6.4e+07 24348.2 -60469.4 9868.2 238265 -93518.4 58065.3
 7.2e+07 21494.4 -55927.9 10708.2 237584 -100008 61874.1
 8e+07 25068.3 -60547.3 8820.4 249940 -102569 66788.2
 8.8e+07 31505.6 -67850.5 4583.57 257660 -97315.9 69224.5
 9.6e+07 36801 -74773 1887.12 265679 -93029.9 70037
 1.04e+08 37142.4 -70247.7 -2201.19 249436 -87217.8 71763.5
 1.12e+08 29514.7 -51488.9 -5191.05 210170 -85318.9 74922.1
 1.2e+08 28839.6 -49201.9 -5938.94 210345 -89048.8 79045
 1.28e+08 27994.1 -40123.6 -11763.1 203290 -97468.9 94606.3
 1.36e+08 26036 -37686.9 -10612.3 226940 -119849 110376
 1.44e+08 27376.2 -36075.9 -13939 236383 -129734 123251
 1.52e+08 26014 -25599.3 -20035.8 246919 -154200 151847
 1.6e+08 26217.2 -20029.5 -24715.4 251800 -166638 168832
 1.6e+08 3532.63 -27459.4 16107.2 372917 -249659 170571
